Relic ALP decay photons galactic spectral search,
Grin et al

0.44913043E+01 0.34411816E-10
0.45086956E+01 0.15029351E-10
0.45304347E+01 0.16543070E-10
0.45347826E+01 0.21680650E-10
0.45695652E+01 0.18278394E-10
0.45652173E+01 0.33090260E-10
0.46086956E+01 0.35733590E-10
0.46304347E+01 0.31128504E-10
0.46434782E+01 0.31840931E-10
0.46521739E+01 0.27989791E-10
0.46695652E+01 0.30052462E-10
0.46999999E+01 0.36297382E-10
0.47130434E+01 0.27799649E-10
0.47260869E+01 0.19282828E-10
0.47391304E+01 0.18437992E-10
0.47478260E+01 0.23430416E-10
0.47652173E+01 0.27338355E-10
0.47869565E+01 0.15581949E-10
0.48173913E+01 0.37056825E-10
0.48565217E+01 0.30521222E-10
0.48695652E+01 0.31339625E-10
0.48782608E+01 0.30175670E-10
0.48869565E+01 0.31954113E-10
0.49652173E+01 0.29055864E-10
0.49913043E+01 0.21870773E-10
0.50043478E+01 0.20909494E-10
0.50217391E+01 0.19849693E-10
0.50391304E+01 0.25466415E-10
0.50565217E+01 0.17958908E-10
0.51173913E+01 0.24857024E-10
0.51347826E+01 0.31636818E-10
0.51869565E+01 0.36423524E-10
0.52173913E+01 0.18751887E-10
0.52260869E+01 0.20575723E-10
0.52434782E+01 0.17757976E-10
0.52478260E+01 0.21158503E-10
0.52608695E+01 0.23143486E-10
0.52695652E+01 0.20420604E-10
0.52826086E+01 0.24274627E-10
0.53000000E+01 0.23782252E-10
0.53130434E+01 0.24511431E-10
0.54043478E+01 0.23124180E-10
0.54304347E+01 0.28104369E-10
0.54478260E+01 0.24640112E-10
0.54608695E+01 0.18203342E-10
0.54782608E+01 0.19611603E-10
0.54869565E+01 0.19105293E-10
0.54956521E+01 0.25353886E-10
0.55086956E+01 0.21432052E-10
0.56608695E+01 0.18136804E-10
0.57173913E+01 0.18029798E-10
0.57956521E+01 0.18349170E-10
0.58260869E+01 0.18012087E-10
0.58434782E+01 0.16955859E-10
0.58478260E+01 0.16180382E-10
0.58608695E+01 0.15835411E-10
0.58913043E+01 0.16171989E-10
0.59000000E+01 0.16717577E-10
0.59304347E+01 0.16803814E-10
0.59869565E+01 0.16240319E-10
0.60434782E+01 0.15882032E-10
0.61478260E+01 0.15965303E-10
0.61956521E+01 0.15649282E-10
0.62434782E+01 0.15645579E-10
0.62608695E+01 0.15939856E-10
0.62869565E+01 0.15568329E-10
0.63304347E+01 0.14888806E-10
0.63652173E+01 0.14388909E-10
0.64130434E+01 0.14044602E-10
0.64739130E+01 0.13954923E-10
0.65043478E+01 0.14076202E-10
0.65782608E+01 0.13628873E-10
0.65913043E+01 0.13073364E-10
0.66347826E+01 0.12748918E-10
0.66869565E+01 0.12849172E-10
0.67478260E+01 0.12462317E-10
0.68173913E+01 0.12006021E-10
0.68869565E+01 0.11985184E-10
0.69217391E+01 0.11395574E-10
0.69478260E+01 0.11081551E-10
0.70086956E+01 0.11223027E-10
0.70478260E+01 0.10847165E-10
0.70652173E+01 0.10451411E-10
0.71000000E+01 0.10378730E-10
0.71217391E+01 0.10788535E-10
0.71652173E+01 0.10641428E-10
0.72260869E+01 0.10689381E-10
0.72826086E+01 0.10730382E-10
0.73260869E+01 0.10499100E-10
0.73521739E+01 0.10207665E-10
0.73956521E+01 0.10026748E-10
0.74347826E+01 0.10363348E-10
0.74782608E+01 0.10423953E-10
0.75260869E+01 0.10284785E-10
0.75739130E+01 0.10027136E-10
0.76347826E+01 0.91906285E-11
0.76347826E+01 0.10000000E-07
0.44913043E+01 0.10000000E-07
